# t [ps] 	 lambda_true_mt 	 false_neg_mt 	 lambda_true_nn 	 false_neg_nn 	 Area [A^2] 	 Top Avg. Loc. [A] 	 Top Std. Loc. [A] 	 Bot. Avg. Loc. [A] 	 Bot. Std. Loc. [A]
0 	 8655 	 84 	 8654 	 81 	 13716.67 	 46.09982 	 1.65346 	 15.25992 	 0.09016
10 	 8983 	 53 	 8986 	 55 	 13596.78 	 46.84637 	 1.56316 	 15.25916 	 0.09067
20 	 9028 	 68 	 9028 	 63 	 13596.94 	 47.01325 	 1.60360 	 15.25796 	 0.09403
30 	 9062 	 69 	 9061 	 69 	 13661.07 	 47.03805 	 1.70058 	 15.26889 	 0.08843
40 	 9130 	 66 	 9133 	 66 	 13634.71 	 47.36786 	 1.69049 	 15.25857 	 0.08658
50 	 9237 	 66 	 9231 	 67 	 13619.02 	 47.50911 	 1.77320 	 15.25471 	 0.09283
60 	 9215 	 41 	 9213 	 39 	 13582.02 	 47.52743 	 1.73291 	 15.27416 	 0.08561
70 	 9291 	 75 	 9289 	 72 	 13743.92 	 47.67784 	 1.87348 	 15.26944 	 0.09275
80 	 9325 	 67 	 9327 	 66 	 13765.17 	 47.83458 	 1.88135 	 15.26796 	 0.09031
90 	 9347 	 73 	 9342 	 71 	 13770.35 	 47.86852 	 1.93438 	 15.27279 	 0.08742
100 	 9472 	 55 	 9465 	 51 	 13798.26 	 48.10081 	 2.02363 	 15.26674 	 0.08227
110 	 9479 	 75 	 9486 	 79 	 13755.38 	 48.29416 	 2.12755 	 15.27395 	 0.08594
120 	 9605 	 62 	 9611 	 63 	 13759.48 	 48.40673 	 2.04287 	 15.26799 	 0.08764
130 	 9612 	 76 	 9624 	 80 	 13753.09 	 48.58912 	 2.07307 	 15.26913 	 0.08936
140 	 9668 	 84 	 9666 	 85 	 13784.65 	 48.58861 	 2.07285 	 15.26336 	 0.08818
150 	 9773 	 64 	 9772 	 60 	 13708.21 	 48.90437 	 2.02381 	 15.26920 	 0.08705
160 	 9722 	 65 	 9721 	 63 	 13719.27 	 48.76364 	 1.93126 	 15.26714 	 0.08276
170 	 9733 	 63 	 9733 	 62 	 13667.33 	 48.94756 	 1.79943 	 15.27897 	 0.08561
180 	 9857 	 71 	 9855 	 70 	 13690.15 	 49.00997 	 1.87121 	 15.26022 	 0.09208
190 	 9898 	 86 	 9904 	 85 	 13631.00 	 49.28614 	 1.84317 	 15.27542 	 0.08536
200 	 9944 	 59 	 9943 	 63 	 13623.73 	 49.42339 	 1.99462 	 15.28241 	 0.08391
210 	 9976 	 67 	 9977 	 65 	 13640.01 	 49.37277 	 1.87539 	 15.26623 	 0.09259
220 	 10044 	 63 	 10039 	 64 	 13634.38 	 49.54246 	 1.85656 	 15.26121 	 0.08923
230 	 10067 	 62 	 10058 	 59 	 13644.23 	 49.60952 	 1.91922 	 15.27940 	 0.08389
240 	 10113 	 64 	 10116 	 67 	 13650.33 	 49.73627 	 1.97026 	 15.26161 	 0.09084
250 	 10278 	 60 	 10279 	 62 	 13614.16 	 50.13468 	 1.95056 	 15.26613 	 0.08875
260 	 10320 	 71 	 10323 	 71 	 13683.76 	 50.27579 	 1.99717 	 15.26979 	 0.08254
270 	 10323 	 49 	 10315 	 50 	 13665.08 	 50.31725 	 1.85493 	 15.27079 	 0.08722
280 	 10403 	 58 	 10403 	 56 	 13690.18 	 50.51453 	 1.96411 	 15.27331 	 0.08868
290 	 10396 	 57 	 10403 	 59 	 13759.48 	 50.60136 	 1.96926 	 15.26632 	 0.08926
300 	 10437 	 50 	 10439 	 51 	 13663.71 	 50.61013 	 1.96774 	 15.26368 	 0.08798
310 	 10474 	 69 	 10476 	 70 	 13728.79 	 50.74298 	 1.95738 	 15.25718 	 0.08726
320 	 10530 	 68 	 10532 	 70 	 13694.91 	 50.82948 	 1.89154 	 15.24591 	 0.08875
330 	 10586 	 58 	 10591 	 55 	 13600.08 	 51.00541 	 1.88984 	 15.27392 	 0.09084
340 	 10585 	 67 	 10588 	 66 	 13657.71 	 50.93916 	 1.90461 	 15.25821 	 0.09066
350 	 10646 	 59 	 10635 	 58 	 13657.36 	 51.20973 	 1.85689 	 15.25942 	 0.08788
360 	 10731 	 67 	 10728 	 67 	 13588.51 	 51.36727 	 1.86002 	 15.27191 	 0.08949
370 	 10714 	 52 	 10723 	 59 	 13686.70 	 51.36259 	 2.00823 	 15.27162 	 0.08796
380 	 10910 	 58 	 10899 	 60 	 13675.77 	 51.89635 	 1.98315 	 15.25139 	 0.08799
390 	 10931 	 61 	 10935 	 60 	 13606.07 	 51.94887 	 1.88192 	 15.25567 	 0.08672
400 	 10961 	 61 	 10961 	 65 	 13682.92 	 51.90670 	 1.99545 	 15.25588 	 0.09276
410 	 10999 	 59 	 10996 	 58 	 13645.16 	 52.12601 	 1.97315 	 15.26277 	 0.08786
420 	 11091 	 81 	 11083 	 79 	 13710.05 	 52.18605 	 2.11249 	 15.25781 	 0.08588
430 	 11052 	 51 	 11050 	 48 	 13732.70 	 52.18671 	 2.07295 	 15.26368 	 0.09133
440 	 11139 	 82 	 11134 	 81 	 13795.33 	 52.41491 	 2.13651 	 15.25931 	 0.08777
450 	 11225 	 56 	 11219 	 54 	 13655.10 	 52.60542 	 2.04615 	 15.26276 	 0.08998
460 	 11187 	 76 	 11184 	 75 	 13704.90 	 52.40976 	 2.04147 	 15.25598 	 0.09053
470 	 11300 	 72 	 11298 	 71 	 13686.17 	 52.73589 	 2.10426 	 15.25885 	 0.08887
480 	 11264 	 79 	 11268 	 75 	 13722.04 	 52.79427 	 2.00830 	 15.25306 	 0.08756
490 	 11377 	 62 	 11379 	 63 	 13692.25 	 52.90725 	 1.87053 	 15.26348 	 0.08969
500 	 11427 	 72 	 11423 	 65 	 13808.84 	 53.16879 	 2.04556 	 15.26097 	 0.08881
510 	 11503 	 73 	 11501 	 71 	 13833.92 	 53.21410 	 1.93136 	 15.25754 	 0.09045
520 	 11545 	 66 	 11543 	 68 	 13796.27 	 53.39553 	 1.94839 	 15.26710 	 0.08659
530 	 11599 	 92 	 11590 	 89 	 13925.47 	 53.43492 	 2.06978 	 15.25592 	 0.09306
540 	 11563 	 70 	 11573 	 74 	 13815.63 	 53.48961 	 2.01646 	 15.25640 	 0.08898
550 	 11694 	 73 	 11691 	 73 	 13733.53 	 53.65649 	 1.93760 	 15.25717 	 0.09113
560 	 11692 	 79 	 11688 	 79 	 13763.25 	 53.84629 	 1.89068 	 15.25888 	 0.08509
570 	 11686 	 76 	 11684 	 76 	 13680.68 	 53.80204 	 1.76758 	 15.25733 	 0.08413
580 	 11663 	 68 	 11658 	 72 	 13669.26 	 53.63502 	 1.79865 	 15.26258 	 0.08951
590 	 11693 	 75 	 11705 	 77 	 13659.24 	 53.80223 	 1.76009 	 15.25591 	 0.08717
600 	 11871 	 87 	 11872 	 91 	 13767.07 	 54.19957 	 1.95055 	 15.25631 	 0.08683
610 	 11776 	 66 	 11779 	 68 	 13607.22 	 53.97961 	 1.78090 	 15.25564 	 0.08842
620 	 11808 	 67 	 11823 	 67 	 13777.96 	 54.13539 	 2.02799 	 15.25903 	 0.08956
630 	 11873 	 68 	 11874 	 71 	 13804.03 	 54.29014 	 2.10191 	 15.26550 	 0.08637
640 	 11889 	 66 	 11883 	 65 	 13837.82 	 54.32943 	 2.06347 	 15.25758 	 0.07979
650 	 11908 	 71 	 11904 	 71 	 13636.84 	 54.27785 	 2.00304 	 15.26428 	 0.09250
660 	 11949 	 73 	 11950 	 69 	 13618.15 	 54.42714 	 1.91378 	 15.26953 	 0.09018
670 	 12049 	 70 	 12052 	 68 	 13538.03 	 54.76375 	 1.81644 	 15.25537 	 0.08752
680 	 12046 	 68 	 12049 	 66 	 13587.86 	 54.67235 	 1.81224 	 15.25846 	 0.08862
690 	 12103 	 75 	 12103 	 76 	 13626.50 	 54.91617 	 1.80219 	 15.25370 	 0.08726
700 	 12071 	 52 	 12075 	 53 	 13554.08 	 54.72432 	 1.74627 	 15.25570 	 0.09046
710 	 12123 	 56 	 12130 	 55 	 13657.68 	 54.89354 	 1.78586 	 15.26151 	 0.09413
720 	 12196 	 69 	 12200 	 69 	 13643.49 	 55.06993 	 1.72917 	 15.24509 	 0.08971
730 	 12275 	 62 	 12270 	 60 	 13564.04 	 55.22870 	 1.61628 	 15.26465 	 0.08920
740 	 12395 	 60 	 12392 	 58 	 13556.88 	 55.69456 	 1.51983 	 15.26001 	 0.08349
750 	 12368 	 71 	 12368 	 70 	 13588.26 	 55.56934 	 1.58841 	 15.25594 	 0.08533
760 	 12373 	 75 	 12370 	 74 	 13660.75 	 55.58887 	 1.60156 	 15.25696 	 0.07740
770 	 12444 	 64 	 12448 	 65 	 13645.28 	 55.67611 	 1.63218 	 15.24927 	 0.09293
780 	 12442 	 70 	 12441 	 69 	 13604.79 	 55.70556 	 1.69021 	 15.26361 	 0.08542
790 	 12480 	 61 	 12483 	 59 	 13662.03 	 55.80381 	 1.72308 	 15.25584 	 0.08112
800 	 12525 	 74 	 12520 	 71 	 13777.25 	 55.88618 	 1.83073 	 15.25825 	 0.08724
810 	 12648 	 67 	 12647 	 67 	 13726.08 	 56.24914 	 1.76853 	 15.24682 	 0.08421
820 	 12678 	 87 	 12672 	 87 	 13717.37 	 56.41557 	 1.76472 	 15.25597 	 0.07913
830 	 12683 	 84 	 12688 	 86 	 13723.07 	 56.34273 	 1.90361 	 15.25737 	 0.07983
840 	 12742 	 64 	 12740 	 61 	 13612.45 	 56.45929 	 1.76538 	 15.24692 	 0.08113
850 	 12846 	 78 	 12845 	 78 	 13611.07 	 56.89064 	 1.84674 	 15.27012 	 0.07340
860 	 12842 	 82 	 12845 	 80 	 13649.06 	 56.94371 	 1.71000 	 15.27454 	 0.07368
870 	 12914 	 77 	 12909 	 76 	 13843.14 	 56.85676 	 1.96936 	 15.25602 	 0.08067
880 	 12957 	 79 	 12958 	 76 	 13711.16 	 57.03878 	 1.81854 	 15.26065 	 0.07862
890 	 13069 	 76 	 13066 	 77 	 13754.90 	 57.29013 	 1.79330 	 15.24842 	 0.08188
900 	 13046 	 69 	 13051 	 70 	 13749.79 	 57.25217 	 1.81236 	 15.25402 	 0.08407
910 	 13111 	 72 	 13107 	 70 	 13787.10 	 57.42108 	 1.85868 	 15.25647 	 0.09074
920 	 13193 	 74 	 13192 	 72 	 13702.35 	 57.53590 	 1.78169 	 15.25457 	 0.08778
930 	 13238 	 86 	 13236 	 86 	 13883.74 	 57.77248 	 1.99300 	 15.25011 	 0.08444
940 	 13295 	 64 	 13297 	 68 	 13779.96 	 57.92391 	 1.86318 	 15.26323 	 0.07898
950 	 13396 	 73 	 13394 	 72 	 13781.16 	 58.17183 	 1.95074 	 15.25082 	 0.07681
960 	 13449 	 95 	 13448 	 89 	 13910.73 	 58.31083 	 2.03570 	 15.25191 	 0.07965
970 	 13379 	 84 	 13387 	 82 	 13818.88 	 58.02688 	 1.99400 	 15.25282 	 0.08541
980 	 13494 	 86 	 13488 	 85 	 13777.00 	 58.37875 	 1.89424 	 15.26248 	 0.08309
990 	 13546 	 85 	 13548 	 82 	 13740.39 	 58.62436 	 1.97473 	 15.27243 	 0.06847
1000 	 13575 	 70 	 13581 	 72 	 13694.35 	 58.66718 	 1.99620 	 15.25301 	 0.07916
1010 	 13594 	 71 	 13590 	 72 	 13732.40 	 58.66193 	 2.07639 	 15.25175 	 0.07821
1020 	 13651 	 63 	 13650 	 60 	 13651.95 	 58.91662 	 1.97105 	 15.26745 	 0.07254
1030 	 13764 	 71 	 13760 	 66 	 13806.00 	 59.07302 	 2.16896 	 15.26375 	 0.07311
1040 	 13768 	 77 	 13770 	 80 	 13740.63 	 59.12732 	 2.10639 	 15.26231 	 0.07316
1050 	 13787 	 75 	 13792 	 74 	 13767.02 	 59.09042 	 2.16275 	 15.26211 	 0.08045
1060 	 13819 	 80 	 13829 	 80 	 13755.30 	 59.27533 	 2.06626 	 15.26040 	 0.08482
1070 	 13898 	 54 	 13894 	 53 	 13728.18 	 59.35846 	 2.04753 	 15.25208 	 0.08175
1080 	 13901 	 71 	 13901 	 71 	 13728.24 	 59.42472 	 2.06336 	 15.25691 	 0.08418
1090 	 13926 	 79 	 13924 	 79 	 13767.20 	 59.34302 	 2.11438 	 15.24942 	 0.08416
1100 	 13961 	 82 	 13959 	 81 	 13764.44 	 59.62324 	 2.16585 	 15.24890 	 0.08101
1110 	 13993 	 77 	 13997 	 79 	 13729.28 	 59.64934 	 2.07890 	 15.25345 	 0.08412
1120 	 14045 	 73 	 14039 	 74 	 13845.00 	 59.83519 	 2.18024 	 15.25844 	 0.08244
1130 	 14027 	 77 	 14026 	 76 	 13787.07 	 59.91568 	 2.19758 	 15.26509 	 0.07094
1140 	 14078 	 67 	 14082 	 67 	 13794.96 	 60.02398 	 2.27599 	 15.27014 	 0.07177
1150 	 14113 	 51 	 14112 	 52 	 13752.83 	 59.87372 	 2.13351 	 15.26360 	 0.07306
1160 	 14154 	 74 	 14149 	 72 	 13869.24 	 60.17356 	 2.12605 	 15.27046 	 0.07425
1170 	 14237 	 81 	 14225 	 79 	 13804.93 	 60.26926 	 2.01504 	 15.26707 	 0.06806
1180 	 14355 	 79 	 14351 	 78 	 13859.00 	 60.69886 	 2.11940 	 15.27311 	 0.07135
1190 	 14349 	 80 	 14353 	 81 	 13838.74 	 60.69205 	 1.99021 	 15.27480 	 0.06651
1200 	 14448 	 65 	 14445 	 67 	 13764.42 	 60.70556 	 2.04983 	 15.26080 	 0.07882
1210 	 14457 	 77 	 14447 	 75 	 13890.44 	 60.82448 	 2.04981 	 15.25990 	 0.07355
1220 	 14475 	 76 	 14473 	 76 	 13798.60 	 61.10294 	 2.20640 	 15.28174 	 0.07216
1230 	 14480 	 59 	 14482 	 58 	 13784.07 	 61.02272 	 2.08305 	 15.27756 	 0.07057
1240 	 14522 	 65 	 14511 	 61 	 13748.55 	 60.86013 	 2.13733 	 15.26081 	 0.07366
1250 	 14541 	 73 	 14547 	 78 	 13750.99 	 61.12039 	 2.20584 	 15.27574 	 0.06847
1260 	 14692 	 80 	 14683 	 78 	 13717.84 	 61.45125 	 1.96973 	 15.26840 	 0.06887
1270 	 14768 	 72 	 14768 	 72 	 13728.37 	 61.74345 	 2.14404 	 15.27421 	 0.07076
1280 	 14857 	 62 	 14854 	 59 	 13786.23 	 61.84932 	 2.25237 	 15.27277 	 0.06729
1290 	 14898 	 93 	 14901 	 92 	 13808.17 	 61.87272 	 2.28694 	 15.26717 	 0.07415
1300 	 14944 	 67 	 14950 	 70 	 13824.44 	 62.23830 	 2.19871 	 15.26973 	 0.06896
1310 	 14928 	 75 	 14922 	 74 	 13829.72 	 62.00888 	 2.29218 	 15.26046 	 0.07280
1320 	 15023 	 77 	 15024 	 73 	 13711.88 	 62.37080 	 2.00158 	 15.26782 	 0.07020
1330 	 15091 	 91 	 15091 	 92 	 13788.00 	 62.59882 	 2.06790 	 15.27013 	 0.06853
1340 	 15096 	 78 	 15096 	 77 	 13737.58 	 62.47977 	 1.98802 	 15.26607 	 0.07451
1350 	 15130 	 90 	 15128 	 89 	 13762.50 	 62.55767 	 2.14388 	 15.26509 	 0.07410
1360 	 15183 	 93 	 15189 	 96 	 13801.18 	 62.60995 	 2.09509 	 15.26870 	 0.07095
1370 	 15233 	 75 	 15236 	 77 	 13815.15 	 62.69337 	 2.17661 	 15.26291 	 0.07123
1380 	 15290 	 85 	 15287 	 87 	 13854.85 	 62.98049 	 2.02376 	 15.27232 	 0.07056
1390 	 15335 	 71 	 15342 	 73 	 13746.83 	 63.01052 	 2.01679 	 15.26077 	 0.06739
1400 	 15402 	 92 	 15400 	 91 	 13690.58 	 63.25315 	 1.93338 	 15.28217 	 0.06940
1410 	 15395 	 76 	 15386 	 72 	 13715.66 	 63.30195 	 1.86649 	 15.27352 	 0.07162
1420 	 15468 	 99 	 15471 	 99 	 13702.89 	 63.25216 	 1.97784 	 15.25766 	 0.07851
1430 	 15593 	 82 	 15596 	 83 	 13666.24 	 63.79798 	 1.89849 	 15.27982 	 0.07166
1440 	 15583 	 73 	 15583 	 73 	 13742.55 	 63.77065 	 1.97404 	 15.28017 	 0.06903
1450 	 15700 	 72 	 15694 	 71 	 13776.05 	 64.01384 	 2.01019 	 15.27426 	 0.06827
1460 	 15715 	 88 	 15708 	 84 	 13776.79 	 64.02036 	 2.00080 	 15.27580 	 0.07151
1470 	 15721 	 96 	 15721 	 94 	 13971.83 	 64.01379 	 2.31870 	 15.27908 	 0.07036
1480 	 15733 	 88 	 15738 	 87 	 13875.16 	 64.15150 	 2.25911 	 15.28814 	 0.07178
1490 	 15753 	 84 	 15752 	 84 	 13884.94 	 64.11637 	 2.15449 	 15.28153 	 0.07594
1500 	 15810 	 82 	 15806 	 81 	 13866.95 	 64.30922 	 2.17073 	 15.28483 	 0.06612
1510 	 15838 	 67 	 15840 	 69 	 13841.49 	 64.25659 	 2.35704 	 15.27869 	 0.07199
1520 	 15831 	 78 	 15829 	 80 	 13781.82 	 64.35429 	 2.18336 	 15.28036 	 0.06933
1530 	 15951 	 87 	 15953 	 84 	 13917.42 	 64.60632 	 2.33076 	 15.28568 	 0.07414
1540 	 16082 	 106 	 16081 	 105 	 13904.81 	 64.94659 	 2.30692 	 15.28426 	 0.07331
1550 	 16092 	 83 	 16085 	 84 	 13970.31 	 64.91882 	 2.51636 	 15.27836 	 0.07570
1560 	 16189 	 93 	 16188 	 95 	 13923.17 	 65.24499 	 2.38935 	 15.28376 	 0.07370
1570 	 16213 	 83 	 16221 	 85 	 13827.38 	 65.36829 	 2.20779 	 15.29490 	 0.07835
1580 	 16243 	 73 	 16246 	 72 	 13969.52 	 65.39270 	 2.26136 	 15.27415 	 0.07111
1590 	 16316 	 85 	 16320 	 86 	 14103.73 	 65.54677 	 2.54034 	 15.28000 	 0.07137
1600 	 16336 	 95 	 16340 	 95 	 13972.36 	 65.59628 	 2.37101 	 15.28579 	 0.07214
1610 	 16357 	 89 	 16357 	 88 	 13842.41 	 65.51073 	 2.29875 	 15.27800 	 0.07341
1620 	 16372 	 87 	 16371 	 88 	 13805.59 	 65.79546 	 2.27716 	 15.28759 	 0.08018
1630 	 16481 	 95 	 16479 	 87 	 13960.69 	 65.91576 	 2.38887 	 15.28239 	 0.07452
1640 	 16549 	 78 	 16538 	 78 	 13836.08 	 66.09485 	 2.44737 	 15.28725 	 0.07215
1650 	 16524 	 100 	 16524 	 98 	 13811.53 	 66.21567 	 2.32039 	 15.29583 	 0.07613
1660 	 16580 	 88 	 16582 	 92 	 13895.11 	 66.26035 	 2.39535 	 15.28438 	 0.07244
1670 	 16561 	 69 	 16558 	 66 	 13835.26 	 66.31319 	 2.38050 	 15.28506 	 0.07451
1680 	 16696 	 84 	 16699 	 85 	 13866.64 	 66.47523 	 2.66715 	 15.27566 	 0.06930
1690 	 16737 	 97 	 16735 	 98 	 13905.53 	 66.50115 	 2.58269 	 15.27681 	 0.06595
1700 	 16791 	 95 	 16779 	 90 	 13762.90 	 66.58440 	 2.43694 	 15.27054 	 0.06958
1710 	 16801 	 87 	 16797 	 84 	 13864.40 	 66.68400 	 2.42130 	 15.27911 	 0.07096
1720 	 16852 	 108 	 16842 	 106 	 13891.21 	 66.74902 	 2.42198 	 15.27564 	 0.07091
1730 	 16910 	 72 	 16911 	 75 	 13823.67 	 67.22623 	 2.31814 	 15.29355 	 0.08060
1740 	 16854 	 79 	 16857 	 81 	 13753.14 	 66.94281 	 2.20955 	 15.28658 	 0.07026
1750 	 16939 	 100 	 16940 	 103 	 13770.01 	 67.05697 	 2.20459 	 15.27933 	 0.07308
1760 	 17032 	 83 	 17035 	 86 	 13914.29 	 67.28452 	 2.40297 	 15.27758 	 0.06871
1770 	 17062 	 95 	 17060 	 94 	 13818.46 	 67.33730 	 2.41733 	 15.28187 	 0.07088
1780 	 17089 	 89 	 17095 	 92 	 13863.91 	 67.43395 	 2.35121 	 15.28374 	 0.06964
1790 	 17199 	 87 	 17205 	 91 	 13747.51 	 67.95270 	 2.17646 	 15.28913 	 0.07577
1800 	 17319 	 82 	 17315 	 77 	 13868.95 	 67.89034 	 2.35758 	 15.27604 	 0.07139
1810 	 17297 	 94 	 17298 	 95 	 13905.65 	 68.14893 	 2.28838 	 15.28809 	 0.07965
1820 	 17405 	 89 	 17407 	 93 	 13718.81 	 68.32300 	 2.18765 	 15.28493 	 0.08141
1830 	 17438 	 94 	 17441 	 94 	 13790.55 	 68.45364 	 2.24048 	 15.28799 	 0.08127
1840 	 17462 	 102 	 17453 	 98 	 13817.15 	 68.52847 	 2.19064 	 15.28378 	 0.07461
1850 	 17421 	 80 	 17421 	 80 	 13759.38 	 68.22698 	 2.22077 	 15.27699 	 0.07140
1860 	 17533 	 81 	 17545 	 86 	 13769.64 	 68.61778 	 2.25824 	 15.28193 	 0.07087
1870 	 17591 	 97 	 17594 	 98 	 13812.42 	 68.69220 	 2.47791 	 15.28079 	 0.07255
1880 	 17564 	 97 	 17574 	 97 	 13787.17 	 68.62736 	 2.40461 	 15.28441 	 0.07007
1890 	 17627 	 97 	 17634 	 100 	 13882.81 	 68.87614 	 2.42073 	 15.27749 	 0.07649
1900 	 17736 	 106 	 17736 	 106 	 13810.34 	 69.09915 	 2.36668 	 15.29035 	 0.07951
1910 	 17707 	 110 	 17704 	 111 	 13828.14 	 69.03954 	 2.35744 	 15.28062 	 0.07563
1920 	 17809 	 87 	 17799 	 88 	 13695.43 	 69.36729 	 2.20472 	 15.28236 	 0.07844
1930 	 17855 	 109 	 17858 	 111 	 13818.63 	 69.33266 	 2.32637 	 15.28501 	 0.07020
1940 	 17872 	 102 	 17878 	 101 	 13945.96 	 69.66148 	 2.44852 	 15.28860 	 0.08146
1950 	 17989 	 101 	 17990 	 106 	 13788.79 	 69.93111 	 2.33895 	 15.29011 	 0.08249
1960 	 17977 	 91 	 17971 	 91 	 13805.32 	 69.62457 	 2.43276 	 15.28352 	 0.07279
1970 	 17966 	 101 	 17962 	 100 	 13943.39 	 69.65688 	 2.47968 	 15.29227 	 0.07516
1980 	 18046 	 101 	 18037 	 102 	 13860.56 	 69.84926 	 2.43102 	 15.29084 	 0.07610
1990 	 18071 	 94 	 18071 	 92 	 13927.68 	 69.90168 	 2.48405 	 15.28994 	 0.07936
2000 	 18062 	 80 	 18063 	 81 	 13916.32 	 70.15431 	 2.62149 	 15.28515 	 0.08498
2010 	 18149 	 97 	 18143 	 92 	 13935.57 	 70.34645 	 2.61922 	 15.28165 	 0.08604
2020 	 18224 	 106 	 18208 	 98 	 13803.41 	 70.16202 	 2.46260 	 15.28687 	 0.07468
2030 	 18216 	 86 	 18219 	 86 	 13915.97 	 70.43561 	 2.71718 	 15.28683 	 0.08387
2040 	 18206 	 87 	 18207 	 91 	 13754.28 	 70.38866 	 2.42700 	 15.28358 	 0.08484
2050 	 18315 	 88 	 18318 	 90 	 13918.74 	 70.62038 	 2.56867 	 15.28907 	 0.07783
2060 	 18361 	 91 	 18365 	 91 	 13791.01 	 70.68192 	 2.37171 	 15.28797 	 0.07699
2070 	 18356 	 93 	 18349 	 91 	 13820.74 	 70.73658 	 2.47711 	 15.29277 	 0.08180
2080 	 18442 	 107 	 18441 	 108 	 13870.59 	 70.94997 	 2.46059 	 15.28815 	 0.08192
2090 	 18499 	 86 	 18501 	 90 	 13768.57 	 70.92149 	 2.37040 	 15.28689 	 0.07802
2100 	 18570 	 110 	 18569 	 109 	 13828.74 	 71.34525 	 2.43484 	 15.29058 	 0.08269
2110 	 18668 	 108 	 18664 	 107 	 13813.11 	 71.38926 	 2.47280 	 15.29205 	 0.08201
2120 	 18661 	 76 	 18655 	 75 	 13826.72 	 71.52108 	 2.39489 	 15.29485 	 0.08265
2130 	 18732 	 87 	 18726 	 88 	 13863.96 	 71.40647 	 2.41669 	 15.28520 	 0.07103
2140 	 18764 	 103 	 18767 	 103 	 13808.42 	 71.60266 	 2.27957 	 15.28811 	 0.07536
2150 	 18836 	 91 	 18839 	 94 	 13817.59 	 72.01920 	 2.26292 	 15.29490 	 0.08692
2160 	 18804 	 94 	 18807 	 97 	 13867.77 	 71.83788 	 2.32739 	 15.29193 	 0.07807
2170 	 18815 	 101 	 18821 	 105 	 13898.82 	 71.79612 	 2.45820 	 15.28791 	 0.07881
2180 	 18953 	 129 	 18948 	 124 	 13961.43 	 72.09861 	 2.52196 	 15.28571 	 0.08286
2190 	 19009 	 104 	 19007 	 104 	 13831.44 	 72.31657 	 2.35054 	 15.28473 	 0.08438
2200 	 19005 	 115 	 19004 	 115 	 13857.62 	 72.20148 	 2.34852 	 15.29570 	 0.07718
2210 	 19038 	 94 	 19045 	 95 	 13884.27 	 72.53428 	 2.39047 	 15.28947 	 0.09072
2220 	 19046 	 107 	 19048 	 106 	 13996.96 	 72.45210 	 2.59888 	 15.29482 	 0.08838
2230 	 19098 	 102 	 19097 	 101 	 14007.16 	 72.56550 	 2.61071 	 15.28862 	 0.08428
2240 	 19185 	 125 	 19185 	 122 	 14006.87 	 72.96181 	 2.56451 	 15.30089 	 0.08758
2250 	 19310 	 104 	 19314 	 104 	 13907.23 	 73.12422 	 2.55323 	 15.28288 	 0.08953
2260 	 19292 	 84 	 19289 	 86 	 13820.42 	 72.98590 	 2.48389 	 15.29276 	 0.07846
2270 	 19300 	 81 	 19309 	 84 	 13941.74 	 73.10004 	 2.54341 	 15.29265 	 0.08609
2280 	 19364 	 113 	 19371 	 113 	 13948.93 	 73.28047 	 2.52759 	 15.29733 	 0.08511
2290 	 19409 	 112 	 19412 	 111 	 13950.32 	 73.44819 	 2.70665 	 15.29322 	 0.08877
2300 	 19400 	 119 	 19396 	 118 	 14004.32 	 73.36824 	 2.71714 	 15.28491 	 0.08655
2310 	 19483 	 115 	 19480 	 112 	 14090.06 	 73.62804 	 3.02933 	 15.29901 	 0.08181
2320 	 19427 	 119 	 19425 	 123 	 13994.64 	 73.64744 	 2.99671 	 15.28648 	 0.09048
2330 	 19414 	 119 	 19410 	 114 	 14037.63 	 73.22742 	 3.02106 	 15.29090 	 0.08274
2340 	 19542 	 113 	 19558 	 119 	 14128.46 	 73.81458 	 3.07722 	 15.28925 	 0.08996
2350 	 19537 	 109 	 19541 	 112 	 13990.14 	 73.77266 	 2.94048 	 15.28866 	 0.08589
2360 	 19578 	 111 	 19580 	 114 	 13865.05 	 73.82827 	 2.77495 	 15.29051 	 0.08229
2370 	 19656 	 103 	 19660 	 105 	 13972.48 	 74.03071 	 2.84713 	 15.28253 	 0.09111
2380 	 19670 	 95 	 19672 	 95 	 14000.59 	 74.15582 	 2.93654 	 15.29165 	 0.08731
2390 	 19709 	 111 	 19704 	 109 	 13989.74 	 74.12284 	 2.91652 	 15.28397 	 0.08697
2400 	 19818 	 103 	 19816 	 101 	 13972.69 	 74.55645 	 3.08360 	 15.27963 	 0.08755
2410 	 19829 	 102 	 19819 	 100 	 14010.78 	 74.45808 	 2.96387 	 15.30079 	 0.08562
2420 	 19872 	 100 	 19860 	 99 	 13994.46 	 74.72095 	 2.91221 	 15.28475 	 0.08852
2430 	 20031 	 118 	 20029 	 119 	 13939.02 	 75.06960 	 2.91937 	 15.28694 	 0.08750
2440 	 20092 	 104 	 20103 	 105 	 13974.69 	 75.24500 	 3.04100 	 15.28430 	 0.08837
2450 	 20098 	 109 	 20104 	 110 	 13909.59 	 75.17984 	 2.94660 	 15.28152 	 0.08872
2460 	 20168 	 102 	 20165 	 102 	 13917.32 	 75.47652 	 3.06178 	 15.28023 	 0.08988
2470 	 20152 	 122 	 20136 	 117 	 14059.66 	 75.29375 	 3.22291 	 15.27423 	 0.08937
2480 	 20281 	 98 	 20284 	 95 	 14090.54 	 75.62283 	 3.12651 	 15.27611 	 0.08761
2490 	 20299 	 111 	 20314 	 113 	 13964.88 	 75.84354 	 3.05221 	 15.28392 	 0.09040
2500 	 20359 	 116 	 20365 	 118 	 14015.05 	 75.87656 	 3.07137 	 15.27661 	 0.08873
2510 	 20335 	 109 	 20335 	 107 	 14114.79 	 75.75196 	 3.29390 	 15.28859 	 0.08782
2520 	 20377 	 113 	 20379 	 108 	 14082.17 	 75.88470 	 3.15550 	 15.28006 	 0.08899
2530 	 20502 	 124 	 20502 	 125 	 14011.93 	 76.26689 	 3.16406 	 15.27859 	 0.08883
2540 	 20447 	 116 	 20441 	 115 	 14004.11 	 76.27274 	 3.25493 	 15.28365 	 0.08712
2550 	 20553 	 97 	 20560 	 98 	 14013.98 	 76.37060 	 2.97689 	 15.28425 	 0.08958
2560 	 20635 	 113 	 20634 	 118 	 14016.42 	 76.55896 	 3.14408 	 15.28473 	 0.08985
2570 	 20631 	 137 	 20633 	 133 	 14025.06 	 76.39014 	 2.95663 	 15.28518 	 0.08992
2580 	 20764 	 125 	 20761 	 121 	 13981.21 	 76.98065 	 3.20704 	 15.28614 	 0.09020
2590 	 20737 	 96 	 20736 	 97 	 14005.91 	 76.90887 	 3.27539 	 15.29245 	 0.08995
2600 	 20866 	 110 	 20855 	 106 	 13958.33 	 77.16570 	 3.14835 	 15.28945 	 0.08787
2610 	 20942 	 114 	 20935 	 111 	 14026.78 	 77.15642 	 3.08280 	 15.28410 	 0.08568
2620 	 20993 	 123 	 21002 	 122 	 13866.15 	 77.58829 	 2.96164 	 15.28711 	 0.08965
2630 	 21062 	 104 	 21065 	 108 	 14031.41 	 77.55164 	 3.14057 	 15.28628 	 0.08875
2640 	 21158 	 109 	 21160 	 108 	 13973.91 	 77.86947 	 2.91536 	 15.28361 	 0.08646
2650 	 21125 	 132 	 21128 	 133 	 13950.33 	 77.71707 	 2.94322 	 15.28398 	 0.08610
2660 	 21288 	 96 	 21290 	 98 	 13949.79 	 78.30638 	 2.84244 	 15.28174 	 0.09233
2670 	 21223 	 112 	 21222 	 110 	 13802.97 	 78.11429 	 2.75923 	 15.28711 	 0.08655
2680 	 21289 	 101 	 21289 	 101 	 13898.76 	 78.33251 	 3.12816 	 15.27809 	 0.08688
2690 	 21380 	 116 	 21381 	 113 	 13825.25 	 78.50874 	 2.98119 	 15.26963 	 0.08671
2700 	 21307 	 112 	 21313 	 114 	 13912.39 	 78.28023 	 2.98994 	 15.28029 	 0.08618
2710 	 21431 	 113 	 21439 	 117 	 13947.50 	 78.44142 	 3.03274 	 15.30075 	 0.08499
2720 	 21408 	 118 	 21411 	 115 	 13861.99 	 78.75692 	 2.99167 	 15.27053 	 0.08314
2730 	 21472 	 131 	 21468 	 131 	 13900.01 	 78.64338 	 2.94934 	 15.28059 	 0.08807
2740 	 21516 	 120 	 21517 	 119 	 13963.77 	 78.90802 	 2.98694 	 15.27231 	 0.08311
2750 	 21568 	 115 	 21562 	 111 	 14171.10 	 78.98248 	 3.07471 	 15.27289 	 0.08047
2760 	 21612 	 109 	 21611 	 109 	 13853.81 	 79.02408 	 2.82145 	 15.27717 	 0.08799
2770 	 21708 	 122 	 21701 	 123 	 13890.04 	 79.25133 	 2.91025 	 15.28059 	 0.08699
2780 	 21726 	 121 	 21722 	 119 	 13929.40 	 79.44610 	 2.95740 	 15.26841 	 0.08169
2790 	 21722 	 106 	 21720 	 107 	 13932.08 	 79.34819 	 3.04872 	 15.26784 	 0.08525
2800 	 21830 	 132 	 21834 	 130 	 13942.05 	 79.67579 	 3.12178 	 15.26823 	 0.08407
2810 	 21882 	 133 	 21883 	 136 	 13933.63 	 79.84955 	 2.93284 	 15.27401 	 0.08704
2820 	 21811 	 115 	 21823 	 116 	 14072.05 	 79.58479 	 3.07014 	 15.26459 	 0.08387
2830 	 21874 	 99 	 21871 	 98 	 13827.47 	 79.82735 	 2.81007 	 15.27531 	 0.07984
2840 	 21971 	 144 	 21959 	 145 	 13885.79 	 80.03534 	 3.01705 	 15.28193 	 0.08619
2850 	 22033 	 123 	 22035 	 122 	 13770.20 	 80.12493 	 2.75212 	 15.28211 	 0.08840
2860 	 22018 	 102 	 22019 	 101 	 13773.79 	 80.38784 	 2.82004 	 15.25972 	 0.08266
2870 	 22082 	 116 	 22083 	 117 	 13742.14 	 80.19962 	 2.79429 	 15.27564 	 0.08906
2880 	 22116 	 107 	 22109 	 105 	 13680.85 	 80.48165 	 2.73162 	 15.27190 	 0.08450
2890 	 22160 	 114 	 22160 	 115 	 13605.18 	 80.77101 	 2.63136 	 15.26511 	 0.08632
2900 	 22257 	 123 	 22256 	 122 	 13747.76 	 80.64749 	 2.65928 	 15.27778 	 0.09052
2910 	 22351 	 138 	 22357 	 136 	 13774.81 	 80.89652 	 2.65922 	 15.27156 	 0.08376
2920 	 22389 	 104 	 22390 	 107 	 13717.16 	 81.03874 	 2.66514 	 15.27771 	 0.08348
2930 	 22368 	 124 	 22368 	 125 	 13765.70 	 81.00753 	 2.71440 	 15.26893 	 0.08545
2940 	 22411 	 110 	 22418 	 110 	 13793.89 	 81.21315 	 2.83726 	 15.26639 	 0.08378
2950 	 22421 	 98 	 22424 	 97 	 13781.01 	 81.37049 	 2.79430 	 15.27644 	 0.08116
2960 	 22434 	 125 	 22432 	 122 	 13865.20 	 81.17169 	 2.95109 	 15.27792 	 0.08945
2970 	 22420 	 109 	 22410 	 108 	 13723.01 	 81.02214 	 2.58824 	 15.28042 	 0.08907
2980 	 22472 	 120 	 22474 	 119 	 13760.27 	 81.42783 	 2.62741 	 15.26580 	 0.08264
2990 	 22539 	 131 	 22538 	 134 	 13760.20 	 81.54253 	 2.57930 	 15.27090 	 0.08640
3000 	 22599 	 102 	 22597 	 103 	 13739.01 	 81.85776 	 2.66443 	 15.27316 	 0.07917
3010 	 22677 	 132 	 22673 	 130 	 13736.27 	 81.85648 	 2.49450 	 15.27868 	 0.08452
3020 	 22696 	 117 	 22694 	 119 	 13787.96 	 81.93012 	 2.51893 	 15.28085 	 0.08542
3030 	 22725 	 111 	 22719 	 108 	 13624.29 	 81.95971 	 2.31879 	 15.27754 	 0.08465
3040 	 22747 	 126 	 22746 	 127 	 13656.71 	 82.16490 	 2.35083 	 15.26482 	 0.08087
3050 	 22774 	 119 	 22772 	 120 	 13769.33 	 82.32097 	 2.35565 	 15.26557 	 0.08235
3060 	 22754 	 114 	 22757 	 113 	 13647.72 	 82.10724 	 2.35164 	 15.26422 	 0.08571
3070 	 22890 	 119 	 22892 	 120 	 13720.15 	 82.08004 	 2.31884 	 15.27849 	 0.08364
3080 	 22904 	 124 	 22896 	 126 	 13833.64 	 82.61053 	 2.41609 	 15.26884 	 0.08328
3090 	 22949 	 102 	 22945 	 102 	 13698.85 	 82.86278 	 2.44062 	 15.26992 	 0.08663
3100 	 23016 	 104 	 23016 	 106 	 13687.67 	 82.72912 	 2.44881 	 15.26611 	 0.08386
3110 	 23098 	 107 	 23107 	 111 	 13678.76 	 82.87204 	 2.41709 	 15.26692 	 0.08395
3120 	 23126 	 120 	 23124 	 119 	 13636.91 	 83.32446 	 2.45068 	 15.27186 	 0.08055
3130 	 23167 	 121 	 23180 	 122 	 13680.62 	 83.04175 	 2.33608 	 15.27116 	 0.08672
3140 	 23183 	 129 	 23183 	 130 	 13725.08 	 83.28571 	 2.15010 	 15.27826 	 0.08214
3150 	 23246 	 112 	 23251 	 114 	 13701.20 	 83.50204 	 2.10385 	 15.26866 	 0.08033
3160 	 23308 	 118 	 23301 	 115 	 13702.65 	 83.50764 	 2.26545 	 15.27177 	 0.08655
3170 	 23344 	 122 	 23341 	 121 	 13728.68 	 83.55766 	 2.17788 	 15.28235 	 0.08197
3180 	 23415 	 144 	 23420 	 143 	 13683.99 	 83.73181 	 2.27342 	 15.27270 	 0.08449
3190 	 23381 	 120 	 23379 	 118 	 13717.80 	 83.54363 	 2.34943 	 15.27517 	 0.08300
3200 	 23457 	 112 	 23461 	 113 	 13620.98 	 83.93720 	 2.39552 	 15.26873 	 0.07491
3210 	 23442 	 138 	 23444 	 140 	 13660.68 	 83.90282 	 2.32333 	 15.26437 	 0.08020
3220 	 23562 	 111 	 23560 	 109 	 13656.02 	 84.15620 	 2.22948 	 15.26732 	 0.07799
3230 	 23508 	 96 	 23507 	 93 	 13666.79 	 83.92525 	 2.23701 	 15.27040 	 0.08391
3240 	 23615 	 122 	 23624 	 121 	 13717.68 	 84.19527 	 2.30592 	 15.27133 	 0.07793
3250 	 23649 	 110 	 23655 	 109 	 13594.59 	 84.61422 	 2.12982 	 15.27407 	 0.08625
3260 	 23726 	 95 	 23742 	 103 	 13653.22 	 84.33640 	 2.24303 	 15.27157 	 0.08322
3270 	 23785 	 125 	 23795 	 126 	 13661.85 	 84.69031 	 2.28388 	 15.26166 	 0.08031
3280 	 23777 	 102 	 23780 	 103 	 13676.76 	 84.39008 	 2.39466 	 15.26794 	 0.08090
3290 	 23831 	 118 	 23838 	 121 	 13641.99 	 84.79975 	 2.27469 	 15.26959 	 0.08009
3300 	 23805 	 121 	 23807 	 125 	 13677.45 	 84.96762 	 2.33985 	 15.27278 	 0.08382
3310 	 23909 	 129 	 23903 	 128 	 13658.07 	 84.82097 	 2.40039 	 15.27459 	 0.08561
3320 	 23916 	 103 	 23904 	 101 	 13775.18 	 84.84595 	 2.54399 	 15.26475 	 0.07955
3330 	 24046 	 117 	 24050 	 120 	 13730.83 	 85.32091 	 2.59559 	 15.26744 	 0.07914
3340 	 24107 	 123 	 24106 	 121 	 13794.34 	 85.55714 	 2.62897 	 15.26520 	 0.08345
3350 	 24104 	 126 	 24107 	 129 	 13745.55 	 85.65864 	 2.63081 	 15.26398 	 0.07752
3360 	 24102 	 107 	 24103 	 108 	 13706.84 	 85.31808 	 2.54120 	 15.27155 	 0.08403
3370 	 24179 	 96 	 24184 	 99 	 13772.30 	 85.30466 	 2.58911 	 15.27247 	 0.08242
3380 	 24167 	 114 	 24171 	 118 	 13734.12 	 85.93145 	 2.40342 	 15.26660 	 0.08431
3390 	 24253 	 142 	 24254 	 137 	 13799.48 	 85.82198 	 2.38020 	 15.27099 	 0.08132
3400 	 24282 	 132 	 24288 	 133 	 13756.63 	 85.83333 	 2.36054 	 15.26817 	 0.07994
3410 	 24365 	 111 	 24363 	 107 	 13806.61 	 86.16486 	 2.56933 	 15.27173 	 0.08112
3420 	 24399 	 113 	 24395 	 113 	 13693.01 	 85.87662 	 2.20578 	 15.26173 	 0.07747
3430 	 24477 	 119 	 24479 	 121 	 13762.92 	 86.29757 	 2.25464 	 15.26517 	 0.08114
3440 	 24501 	 109 	 24497 	 111 	 13748.31 	 86.34835 	 2.32755 	 15.26872 	 0.07765
3450 	 24476 	 111 	 24469 	 111 	 13695.28 	 86.41113 	 2.32860 	 15.27713 	 0.08012
3460 	 24515 	 103 	 24516 	 103 	 13649.07 	 86.42514 	 2.28244 	 15.27443 	 0.08304
3470 	 24616 	 117 	 24615 	 118 	 13659.36 	 86.71353 	 2.20724 	 15.27366 	 0.08397
3480 	 24669 	 127 	 24672 	 126 	 13714.96 	 86.97801 	 2.25416 	 15.26971 	 0.08390
3490 	 24765 	 139 	 24764 	 139 	 13675.40 	 87.17252 	 2.40869 	 15.26966 	 0.08021
3500 	 24769 	 122 	 24761 	 122 	 13623.69 	 86.98676 	 2.20727 	 15.26580 	 0.08176
3510 	 24791 	 114 	 24790 	 115 	 13690.12 	 87.19723 	 2.22695 	 15.27139 	 0.07999
3520 	 24837 	 128 	 24839 	 127 	 13751.14 	 87.25364 	 2.40565 	 15.26903 	 0.08036
3530 	 24857 	 113 	 24854 	 109 	 13748.38 	 87.35604 	 2.52634 	 15.26101 	 0.08451
3540 	 24841 	 113 	 24837 	 111 	 13675.87 	 87.25555 	 2.51565 	 15.26294 	 0.08203
3550 	 24927 	 114 	 24922 	 112 	 13720.89 	 87.83413 	 2.56089 	 15.27129 	 0.08080
3560 	 25025 	 144 	 25022 	 146 	 13761.71 	 87.58141 	 2.47281 	 15.27566 	 0.07523
3570 	 25079 	 127 	 25077 	 127 	 13817.01 	 87.85531 	 2.49822 	 15.27046 	 0.07992
3580 	 25091 	 123 	 25091 	 119 	 13843.09 	 88.04731 	 2.44714 	 15.27324 	 0.07890
3590 	 25201 	 132 	 25197 	 132 	 13829.84 	 88.24290 	 2.41174 	 15.27348 	 0.07976
3600 	 25160 	 114 	 25155 	 111 	 13851.57 	 87.84135 	 2.46591 	 15.27180 	 0.08361
3610 	 25260 	 122 	 25264 	 125 	 13765.72 	 88.41195 	 2.36832 	 15.26092 	 0.07985
3620 	 25316 	 120 	 25316 	 122 	 13781.58 	 88.60374 	 2.35147 	 15.26771 	 0.08239
3630 	 25369 	 116 	 25374 	 118 	 13857.67 	 88.62058 	 2.34273 	 15.27796 	 0.08084
3640 	 25428 	 111 	 25430 	 115 	 13808.14 	 88.50533 	 2.48713 	 15.26593 	 0.08039
3650 	 25498 	 131 	 25497 	 129 	 13836.59 	 89.12450 	 2.27806 	 15.27337 	 0.07805
3660 	 25479 	 120 	 25479 	 122 	 13766.13 	 88.86945 	 2.32230 	 15.27160 	 0.08921
3670 	 25515 	 118 	 25503 	 116 	 13748.28 	 88.89916 	 2.26639 	 15.26825 	 0.08130
3680 	 25615 	 120 	 25610 	 118 	 13826.81 	 89.29831 	 2.32503 	 15.26923 	 0.08191
3690 	 25544 	 115 	 25547 	 116 	 13769.38 	 89.09387 	 2.35819 	 15.26235 	 0.08081
3700 	 25599 	 120 	 25601 	 117 	 13800.22 	 89.15988 	 2.42077 	 15.26448 	 0.08385
3710 	 25631 	 138 	 25635 	 139 	 13657.13 	 89.17367 	 2.25147 	 15.26670 	 0.07560
3720 	 25607 	 132 	 25612 	 131 	 13689.35 	 89.30695 	 2.17744 	 15.27214 	 0.08101
3730 	 25682 	 147 	 25677 	 148 	 13674.00 	 89.76415 	 2.25980 	 15.26443 	 0.07995
3740 	 25653 	 122 	 25655 	 124 	 13689.73 	 89.23505 	 2.19223 	 15.26738 	 0.08618
3750 	 25708 	 130 	 25702 	 133 	 13736.71 	 89.57173 	 2.42132 	 15.26842 	 0.08282
3760 	 25734 	 115 	 25737 	 120 	 13772.07 	 89.57896 	 2.36959 	 15.27296 	 0.07988
3770 	 25818 	 132 	 25815 	 129 	 13800.26 	 89.94561 	 2.36167 	 15.26976 	 0.07836
3780 	 25886 	 141 	 25883 	 139 	 13807.74 	 89.61300 	 2.39967 	 15.27182 	 0.07830
3790 	 25868 	 111 	 25871 	 111 	 13770.34 	 89.81909 	 2.38425 	 15.26988 	 0.08088
3800 	 25929 	 115 	 25928 	 119 	 13744.47 	 90.05342 	 2.33477 	 15.26480 	 0.08070
3810 	 26047 	 137 	 26048 	 142 	 13782.94 	 90.46748 	 2.25054 	 15.26816 	 0.08235
3820 	 26061 	 125 	 26057 	 123 	 13788.81 	 90.26669 	 2.33545 	 15.26314 	 0.07811
3830 	 26105 	 114 	 26109 	 113 	 13791.37 	 90.44012 	 2.36126 	 15.27106 	 0.08115
3840 	 26127 	 107 	 26125 	 110 	 13793.94 	 90.55695 	 2.33104 	 15.26854 	 0.08027
3850 	 26107 	 147 	 26112 	 149 	 13874.40 	 90.35804 	 2.38751 	 15.27193 	 0.08289
3860 	 26154 	 128 	 26155 	 129 	 13768.25 	 90.80669 	 2.49459 	 15.27806 	 0.08161
3870 	 26101 	 117 	 26104 	 118 	 13751.91 	 90.36852 	 2.35755 	 15.26558 	 0.07858
3880 	 26240 	 139 	 26237 	 139 	 13775.57 	 90.91937 	 2.23200 	 15.27223 	 0.08122
3890 	 26276 	 149 	 26269 	 146 	 13710.98 	 90.74274 	 2.04304 	 15.26642 	 0.07830
3900 	 26237 	 124 	 26235 	 124 	 13670.22 	 90.62740 	 2.09977 	 15.27061 	 0.08573
3910 	 26288 	 140 	 26282 	 138 	 13711.80 	 91.25479 	 2.13899 	 15.27214 	 0.08171
3920 	 26353 	 103 	 26346 	 100 	 13671.24 	 91.07137 	 2.05456 	 15.26448 	 0.07941
3930 	 26415 	 139 	 26416 	 137 	 13739.98 	 91.22068 	 2.00797 	 15.27120 	 0.08078
3940 	 26421 	 128 	 26418 	 127 	 13694.10 	 91.35037 	 2.06648 	 15.26850 	 0.08322
3950 	 26447 	 107 	 26443 	 107 	 13659.84 	 91.47837 	 1.90837 	 15.26184 	 0.07941
3960 	 26477 	 135 	 26482 	 135 	 13653.59 	 91.54567 	 2.04710 	 15.26599 	 0.07685
3970 	 26527 	 125 	 26525 	 121 	 13725.21 	 91.62386 	 1.96572 	 15.26406 	 0.08155
3980 	 26517 	 130 	 26514 	 130 	 13772.81 	 91.68906 	 2.00824 	 15.26589 	 0.08128
3990 	 26581 	 122 	 26584 	 122 	 13687.98 	 91.66128 	 2.04926 	 15.26840 	 0.07984
4000 	 26582 	 126 	 26580 	 129 	 13683.63 	 91.51719 	 1.97714 	 15.27160 	 0.08009
4010 	 26617 	 103 	 26622 	 105 	 13558.86 	 91.87609 	 1.82474 	 15.27334 	 0.07920
4020 	 26633 	 144 	 26625 	 141 	 13668.79 	 91.95130 	 1.92409 	 15.26937 	 0.08291
4030 	 26604 	 137 	 26600 	 134 	 13649.51 	 91.84953 	 2.00527 	 15.26651 	 0.07915
4040 	 26617 	 117 	 26616 	 118 	 13663.16 	 91.61021 	 1.98365 	 15.27062 	 0.07970
4050 	 26653 	 141 	 26647 	 136 	 13721.09 	 91.95936 	 2.14529 	 15.26873 	 0.07624
4060 	 26704 	 135 	 26696 	 134 	 13729.75 	 92.36092 	 2.11646 	 15.26521 	 0.08030
4070 	 26718 	 153 	 26718 	 153 	 13727.74 	 92.36301 	 2.17680 	 15.26049 	 0.08184
4080 	 26837 	 133 	 26828 	 128 	 13788.64 	 92.20982 	 2.17532 	 15.27317 	 0.08503
4090 	 26791 	 138 	 26793 	 138 	 13683.11 	 92.00366 	 2.12457 	 15.26651 	 0.07722
4100 	 26873 	 162 	 26863 	 157 	 13769.58 	 92.36828 	 2.09559 	 15.26773 	 0.08110
4110 	 26934 	 133 	 26932 	 133 	 13766.08 	 92.56836 	 2.20168 	 15.25756 	 0.08055
4120 	 26947 	 130 	 26948 	 130 	 13858.23 	 92.75268 	 2.29123 	 15.27622 	 0.07714
4130 	 26946 	 116 	 26940 	 114 	 13732.90 	 92.63900 	 2.26938 	 15.25912 	 0.07855
4140 	 26988 	 133 	 26993 	 132 	 13772.12 	 92.53626 	 2.28382 	 15.26481 	 0.07712
4150 	 27056 	 132 	 27059 	 129 	 13745.36 	 93.31439 	 2.23920 	 15.26814 	 0.07772
4160 	 27108 	 132 	 27111 	 131 	 13757.03 	 92.98285 	 2.35900 	 15.26499 	 0.08077
4170 	 27123 	 142 	 27119 	 140 	 13810.54 	 93.00348 	 2.31531 	 15.26535 	 0.07990
4180 	 27186 	 115 	 27175 	 116 	 13641.32 	 93.21272 	 2.10638 	 15.27437 	 0.07928
4190 	 27147 	 127 	 27150 	 128 	 13761.40 	 92.98531 	 2.33177 	 15.26929 	 0.07968
4200 	 27257 	 135 	 27259 	 137 	 13708.01 	 93.54021 	 2.24715 	 15.26449 	 0.08422
4210 	 27301 	 144 	 27302 	 147 	 13661.32 	 93.28477 	 2.26978 	 15.27404 	 0.08342
4220 	 27374 	 123 	 27373 	 123 	 13629.64 	 93.69563 	 2.16317 	 15.26789 	 0.07965
4230 	 27410 	 134 	 27413 	 138 	 13718.78 	 93.84119 	 2.28021 	 15.26380 	 0.08256
4240 	 27425 	 148 	 27425 	 144 	 13716.70 	 93.77870 	 2.25781 	 15.26545 	 0.07977
4250 	 27425 	 121 	 27426 	 119 	 13749.37 	 93.70216 	 2.33645 	 15.27354 	 0.07512
4260 	 27491 	 102 	 27489 	 102 	 13700.78 	 94.14617 	 2.29673 	 15.27045 	 0.08026
4270 	 27472 	 134 	 27474 	 136 	 13711.21 	 93.80018 	 2.20983 	 15.26939 	 0.07983
4280 	 27469 	 145 	 27462 	 143 	 13706.82 	 93.84542 	 2.21710 	 15.27135 	 0.08023
4290 	 27529 	 118 	 27529 	 117 	 13676.62 	 93.97591 	 2.10208 	 15.27035 	 0.08165
4300 	 27531 	 132 	 27531 	 131 	 13785.59 	 94.12984 	 2.24078 	 15.26591 	 0.07895
4310 	 27578 	 143 	 27584 	 142 	 13750.22 	 94.47236 	 2.17502 	 15.26636 	 0.08384
4320 	 27659 	 117 	 27664 	 117 	 13717.73 	 94.11549 	 2.31705 	 15.26460 	 0.08571
4330 	 27657 	 134 	 27656 	 132 	 13803.04 	 94.05378 	 2.15703 	 15.26194 	 0.07823
4340 	 27685 	 116 	 27680 	 115 	 13660.90 	 94.59486 	 2.13406 	 15.27273 	 0.08162
4350 	 27584 	 136 	 27579 	 134 	 13820.84 	 93.92422 	 2.30268 	 15.27354 	 0.08337
4360 	 27627 	 115 	 27613 	 111 	 13727.02 	 94.32961 	 2.27480 	 15.27250 	 0.08159
4370 	 27562 	 139 	 27558 	 138 	 13691.51 	 94.45732 	 2.18581 	 15.26783 	 0.07835
4380 	 27565 	 147 	 27559 	 147 	 13693.61 	 94.11477 	 2.16383 	 15.25927 	 0.08172
4390 	 27607 	 131 	 27604 	 130 	 13616.72 	 94.05369 	 2.17864 	 15.27592 	 0.07396
4400 	 27626 	 127 	 27624 	 132 	 13706.34 	 94.32043 	 2.29427 	 15.26896 	 0.08424
4410 	 27650 	 145 	 27653 	 147 	 13669.90 	 94.32359 	 2.17448 	 15.26944 	 0.08219
4420 	 27712 	 138 	 27716 	 141 	 13807.04 	 94.49477 	 2.31452 	 15.27114 	 0.08279
4430 	 27707 	 146 	 27703 	 149 	 13698.48 	 94.50945 	 2.26091 	 15.26222 	 0.08102
4440 	 27660 	 123 	 27660 	 123 	 13673.73 	 94.50295 	 2.40522 	 15.26869 	 0.07997
4450 	 27676 	 137 	 27665 	 137 	 13793.11 	 94.68834 	 2.36816 	 15.26880 	 0.08223
4460 	 27805 	 122 	 27803 	 123 	 13735.60 	 94.59380 	 2.18577 	 15.26690 	 0.07917
4470 	 27854 	 119 	 27859 	 123 	 13738.65 	 94.75700 	 2.10709 	 15.27219 	 0.07529
4480 	 27906 	 138 	 27909 	 135 	 13749.71 	 94.99236 	 2.04643 	 15.26337 	 0.07588
4490 	 27905 	 152 	 27911 	 154 	 13870.37 	 94.93148 	 2.07444 	 15.26924 	 0.08180
4500 	 27897 	 140 	 27894 	 141 	 13770.63 	 95.05335 	 1.99838 	 15.27122 	 0.07976
4510 	 27916 	 128 	 27916 	 128 	 13718.10 	 94.89802 	 1.99889 	 15.27222 	 0.08056
4520 	 27888 	 141 	 27885 	 140 	 13676.81 	 95.10228 	 1.94390 	 15.27089 	 0.08061
4530 	 27905 	 114 	 27914 	 115 	 13552.63 	 94.89329 	 1.80199 	 15.26622 	 0.08071
4540 	 27940 	 140 	 27934 	 142 	 13689.41 	 95.10957 	 1.94152 	 15.26778 	 0.08309
4550 	 27985 	 140 	 27986 	 139 	 13700.51 	 95.45873 	 1.95222 	 15.26405 	 0.07951
4560 	 27997 	 158 	 28005 	 161 	 13759.98 	 95.63028 	 2.06702 	 15.26347 	 0.08417
4570 	 28041 	 131 	 28036 	 129 	 13663.74 	 95.24339 	 2.03250 	 15.26634 	 0.07835
4580 	 28118 	 119 	 28112 	 118 	 13608.63 	 95.39159 	 1.93844 	 15.27196 	 0.07511
4590 	 28058 	 123 	 28050 	 120 	 13561.92 	 95.69498 	 1.78657 	 15.27030 	 0.08095
4600 	 28148 	 114 	 28145 	 113 	 13600.57 	 95.85909 	 1.73892 	 15.27009 	 0.07657
4610 	 28171 	 131 	 28168 	 129 	 13540.00 	 95.66598 	 1.67545 	 15.27348 	 0.07801
4620 	 28225 	 107 	 28227 	 107 	 13485.82 	 95.82615 	 1.60280 	 15.26744 	 0.08317
4630 	 28308 	 121 	 28306 	 120 	 13577.65 	 96.11970 	 1.60850 	 15.26833 	 0.07925
4640 	 28223 	 150 	 28224 	 148 	 13539.50 	 96.07333 	 1.61882 	 15.27110 	 0.07831
4650 	 28317 	 135 	 28326 	 135 	 13595.37 	 96.31252 	 1.66304 	 15.26972 	 0.08182
4660 	 28328 	 143 	 28328 	 144 	 13536.73 	 96.30112 	 1.56048 	 15.26734 	 0.08320
4670 	 28368 	 121 	 28373 	 123 	 13566.91 	 96.29659 	 1.52538 	 15.26532 	 0.08243
4680 	 28453 	 134 	 28441 	 130 	 13549.50 	 96.47091 	 1.50731 	 15.26947 	 0.08460
4690 	 28465 	 120 	 28451 	 114 	 13555.62 	 96.61384 	 1.53288 	 15.27338 	 0.07975
4700 	 28470 	 137 	 28466 	 135 	 13549.67 	 96.50613 	 1.58175 	 15.27565 	 0.07839
4710 	 28519 	 100 	 28519 	 101 	 13511.53 	 96.81239 	 1.51422 	 15.27215 	 0.08404
4720 	 28577 	 144 	 28577 	 142 	 13518.90 	 96.95370 	 1.51997 	 15.27236 	 0.08270
4730 	 28567 	 121 	 28567 	 121 	 13435.96 	 96.70979 	 1.41728 	 15.26412 	 0.08225
4740 	 28642 	 123 	 28640 	 124 	 13460.04 	 97.01080 	 1.44705 	 15.26536 	 0.07982
4750 	 28662 	 108 	 28656 	 108 	 13468.06 	 97.07653 	 1.38913 	 15.27500 	 0.08258
4760 	 28624 	 114 	 28622 	 116 	 13434.62 	 96.79675 	 1.43645 	 15.26515 	 0.08283
4770 	 28664 	 115 	 28658 	 115 	 13572.55 	 97.11113 	 1.72937 	 15.26461 	 0.08553
4780 	 28681 	 114 	 28678 	 113 	 13531.21 	 96.98039 	 1.54059 	 15.26662 	 0.08031
4790 	 28724 	 130 	 28728 	 127 	 13579.95 	 97.17051 	 1.48248 	 15.27140 	 0.07910
4800 	 28640 	 109 	 28637 	 108 	 13629.77 	 97.15902 	 1.57626 	 15.26915 	 0.08260
4810 	 28669 	 112 	 28668 	 111 	 13488.72 	 96.96439 	 1.54594 	 15.26430 	 0.08144
4820 	 28633 	 119 	 28637 	 122 	 13579.80 	 96.90416 	 1.60281 	 15.27134 	 0.07837
4830 	 28595 	 130 	 28596 	 129 	 13528.45 	 96.86583 	 1.56665 	 15.26818 	 0.08134
4840 	 28622 	 109 	 28618 	 109 	 13522.59 	 96.47841 	 1.57195 	 15.27068 	 0.07864
4850 	 28647 	 114 	 28643 	 113 	 13490.36 	 96.98564 	 1.58724 	 15.26386 	 0.08077
4860 	 28652 	 148 	 28651 	 148 	 13617.12 	 97.05426 	 1.66025 	 15.25935 	 0.08071
4870 	 28655 	 127 	 28649 	 127 	 13632.45 	 96.82911 	 1.65931 	 15.27182 	 0.07604
4880 	 28642 	 132 	 28650 	 133 	 13596.86 	 97.07220 	 1.64406 	 15.27419 	 0.08162
4890 	 28654 	 125 	 28658 	 128 	 13593.62 	 97.17937 	 1.60332 	 15.27348 	 0.08015
4900 	 28671 	 120 	 28669 	 120 	 13607.36 	 97.05621 	 1.71630 	 15.26999 	 0.08337
4910 	 28728 	 101 	 28734 	 101 	 13512.47 	 96.68145 	 1.50270 	 15.27448 	 0.08106
4920 	 28818 	 129 	 28816 	 128 	 13527.12 	 96.99804 	 1.56566 	 15.25907 	 0.08523
4930 	 28798 	 124 	 28793 	 125 	 13567.98 	 97.50248 	 1.59977 	 15.26604 	 0.07691
4940 	 28849 	 138 	 28855 	 139 	 13526.94 	 97.46987 	 1.50912 	 15.26737 	 0.08215
4950 	 28889 	 119 	 28889 	 116 	 13515.80 	 97.58913 	 1.57812 	 15.26608 	 0.08059
4960 	 28826 	 120 	 28822 	 120 	 13565.61 	 97.29015 	 1.73238 	 15.26224 	 0.07961
4970 	 28872 	 116 	 28868 	 117 	 13525.60 	 97.47015 	 1.62859 	 15.27589 	 0.08437
4980 	 28861 	 101 	 28857 	 98 	 13506.14 	 97.44177 	 1.66081 	 15.27448 	 0.07918
4990 	 28915 	 113 	 28910 	 110 	 13457.31 	 97.92077 	 1.52332 	 15.26509 	 0.07947
5000 	 28895 	 137 	 28890 	 131 	 13443.01 	 97.58668 	 1.41718 	 15.27107 	 0.08108
